MFC-3045 Multiple measurements file: 9006map1.dam (WMFCTOOL v9.0)
=================================================================



2016/5/10  13:33:56 -> meas. 1/33 
------------------------------------

Measurement parameters (Pr/NCY/MCF/MDA/Period) : 
24	70	637938778	1100	60	
Mean value:
63.7905733	Mhz
1.49826644	T
Max value:	at probe #:
63.8099269	2
Min value:	at probe #:
63.7775250	13
diff max-min:	ppm of mean value
507.9


	      NMR f. [MHz]	       RMS [Hz]	   Valid cycles

  1	   63.8098144	          1.2	           70 
  2	   63.8099269	          1.2	           70 
  3	   63.8093737	          1.2	           70 
  4	   63.8078327	          1.2	           70 
  5	   63.8058086	          0.6	           70 
  6	   63.8033143	          1.2	           70 
  7	   63.7990601	          1.2	           70 
  8	   63.7933744	          1.2	           70 
  9	   63.7882007	          1.2	           70 
 10	   63.7839398	          1.2	           70 
 11	   63.7800415	          1.2	           70 
 12	   63.7777408	          0.6	           70 
 13	   63.7775250	          1.2	           70 
 14	   63.7787366	          1.2	           70 
 15	   63.7802511	          1.2	           70 
 16	   63.7809875	          1.2	           70 
 17	   63.7821812	          1.2	           70 
 18	   63.7842299	          1.2	           70 
 19	   63.7856768	          1.2	           70 
 20	   63.7862202	          1.2	           70 
 21	   63.7868318	          1.2	           70 
 22	   63.7875344	          1.2	           70 
 23	   63.7877053	          1.2	           70 
 24	   63.7874514	          1.8	           70 


2016/5/10  13:34:18 -> meas. 2/33 
------------------------------------

Measurement parameters (Pr/NCY/MCF/MDA/Period) : 
24	70	637938778	1100	60	
Mean value:
63.7892037	Mhz
1.49823427	T
Max value:	at probe #:
63.8096804	1
Min value:	at probe #:
63.7749533	13
diff max-min:	ppm of mean value
544.4


	      NMR f. [MHz]	       RMS [Hz]	   Valid cycles

  1	   63.8096804	          1.2	           70 
  2	   63.8096214	          1.2	           70 
  3	   63.8088875	          1.2	           70 
  4	   63.8071498	          1.8	           70 
  5	   63.8048927	          1.2	           70 
  6	   63.8021126	          1.2	           70 
  7	   63.7975240	          1.2	           70 
  8	   63.7914830	          1.2	           70 
  9	   63.7859756	          1.2	           70 
 10	   63.7814682	          1.8	           70 
 11	   63.7774359	          1.8	           70 
 12	   63.7751002	          2.4	           70 
 13	   63.7749533	          1.8	           70 
 14	   63.7763381	          1.8	           70 
 15	   63.7780832	          1.2	           70 
 16	   63.7790826	          1.2	           70 
 17	   63.7805523	          1.8	           70 
 18	   63.7828592	          1.2	           70 
 19	   63.7845428	          1.2	           70 
 20	   63.7853117	          1.2	           70 
 21	   63.7861329	          1.2	           70 
 22	   63.7870230	          1.8	           70 
 23	   63.7873752	          1.8	           70 
 24	   63.7873033	          1.8	           70 


2016/5/10  13:34:28 -> meas. 3/33 
------------------------------------

Measurement parameters (Pr/NCY/MCF/MDA/Period) : 
24	70	637938778	1100	60	
Mean value:
63.7880051	Mhz
1.49820612	T
Max value:	at probe #:
63.8095679	1
Min value:	at probe #:
63.7726820	13
diff max-min:	ppm of mean value
578.3


	      NMR f. [MHz]	       RMS [Hz]	   Valid cycles

  1	   63.8095679	          1.2	           70 
  2	   63.8093651	          1.2	           70 
  3	   63.8084830	          1.2	           70 
  4	   63.8065788	          1.2	           70 
  5	   63.8041201	          1.2	           70 
  6	   63.8010947	          0.6	           70 
  7	   63.7962259	          1.2	           70 
  8	   63.7898837	          1.2	           70 
  9	   63.7840818	          0.6	           70 
 10	   63.7793463	          1.8	           70 
 11	   63.7751874	          1.2	           70 
 12	   63.7728019	          1.2	           70 
 13	   63.7726820	          1.2	           70 
 14	   63.7741708	          1.2	           70 
 15	   63.7760916	          1.8	           70 
 16	   63.7773363	          1.2	           70 
 17	   63.7790789	          1.2	           70 
 18	   63.7816341	          0.6	           70 
 19	   63.7835390	          1.2	           70 
 20	   63.7845096	          0.6	           70 
 21	   63.7855146	          1.2	           70 
 22	   63.7865712	          1.2	           70 
 23	   63.7870838	          9.2	           70 
 24	   63.7871729	          1.2	           70 


2016/5/10  13:34:38 -> meas. 4/33 
------------------------------------

Measurement parameters (Pr/NCY/MCF/MDA/Period) : 
24	70	637938778	1100	60	
Mean value:
63.7870852	Mhz
1.49818451	T
Max value:	at probe #:
63.8094800	1
Min value:	at probe #:
63.7709720	13
diff max-min:	ppm of mean value
603.7


	      NMR f. [MHz]	       RMS [Hz]	   Valid cycles

  1	   63.8094800	          1.2	           70 
  2	   63.8091684	          1.2	           70 
  3	   63.8081745	          1.2	           70 
  4	   63.8061461	          1.2	           70 
  5	   63.8035374	          1.2	           70 
  6	   63.8003331	          1.2	           70 
  7	   63.7952639	          1.2	           70 
  8	   63.7887109	          1.2	           70 
  9	   63.7826957	          1.2	           70 
 10	   63.7777863	          1.2	           70 
 11	   63.7735198	          1.2	           70 
 12	   63.7710839	          1.2	           70 
 13	   63.7709720	          1.2	           70 
 14	   63.7725105	          1.2	           70 
 15	   63.7745365	          0.6	           70 
 16	   63.7759484	          1.2	           70 
 17	   63.7778926	          1.2	           70 
 18	   63.7806328	          1.2	           70 
 19	   63.7827092	          1.2	           70 
 20	   63.7838427	          1.2	           70 
 21	   63.7849988	          1.2	           70 
 22	   63.7861950	          1.2	           70 
 23	   63.7868398	          1.2	           70 
 24	   63.7870660	          1.2	           70 


2016/5/10  13:34:49 -> meas. 5/33 
------------------------------------

Measurement parameters (Pr/NCY/MCF/MDA/Period) : 
24	70	637938778	1100	60	
Mean value:
63.7865037	Mhz
1.49817086	T
Max value:	at probe #:
63.8094149	1
Min value:	at probe #:
63.7700107	13
diff max-min:	ppm of mean value
617.8


	      NMR f. [MHz]	       RMS [Hz]	   Valid cycles

  1	   63.8094149	          1.2	           70 
  2	   63.8090270	          1.2	           70 
  3	   63.8079630	          1.2	           70 
  4	   63.8058590	          0.6	           70 
  5	   63.8031581	          1.2	           70 
  6	   63.7998530	          1.2	           70 
  7	   63.7946843	          1.2	           70 
  8	   63.7880298	          0.6	           70 
  9	   63.7819083	          1.2	           70 
 10	   63.7769141	          1.2	           70 
 11	   63.7725966	          1.2	           70 
 12	   63.7701342	          1.2	           70 
 13	   63.7700107	          1.2	           70 
 14	   63.7715357	          1.2	           70 
 15	   63.7735653	          1.2	           70 
 16	   63.7750246	          1.2	           70 
 17	   63.7770499	          1.2	           70 
 18	   63.7798823	          1.2	           70 
 19	   63.7820619	          1.2	           70 
 20	   63.7833116	          1.2	           70 
 21	   63.7845858	          1.2	           70 
 22	   63.7858926	          1.2	           70 
 23	   63.7866456	          1.2	           70 
 24	   63.7869806	          1.8	           70 


2016/5/10  13:34:59 -> meas. 6/33 
------------------------------------

Measurement parameters (Pr/NCY/MCF/MDA/Period) : 
24	70	637938778	1100	60	
Mean value:
63.7863152	Mhz
1.49816643	T
Max value:	at probe #:
63.8093811	1
Min value:	at probe #:
63.7698595	13
diff max-min:	ppm of mean value
619.6


	      NMR f. [MHz]	       RMS [Hz]	   Valid cycles

  1	   63.8093811	          1.2	           70 
  2	   63.8089594	          1.2	           70 
  3	   63.8078702	          0.6	           70 
  4	   63.8057453	          1.2	           70 
  5	   63.8030223	          1.2	           70 
  6	   63.7997012	          1.2	           70 
  7	   63.7945349	          0.6	           70 
  8	   63.7878933	          1.2	           70 
  9	   63.7817841	          1.2	           70 
 10	   63.7768065	          1.2	           70 
 11	   63.7725050	          1.2	           70 
 12	   63.7700346	          0.6	           70 
 13	   63.7698595	          1.2	           70 
 14	   63.7713132	          1.2	           70 
 15	   63.7732611	          1.2	           70 
 16	   63.7746582	          0.6	           70 
 17	   63.7766467	          0.6	           70 
 18	   63.7794686	          1.2	           70 
 19	   63.7816722	          1.2	           70 
 20	   63.7829778	          1.2	           70 
 21	   63.7843215	          1.2	           70 
 22	   63.7856996	          1.2	           70 
 23	   63.7865220	          1.2	           70 
 24	   63.7869271	          1.8	           70 


2016/5/10  13:35:08 -> meas. 7/33 
------------------------------------

Measurement parameters (Pr/NCY/MCF/MDA/Period) : 
24	70	637938778	1100	60	
Mean value:
63.7864386	Mhz
1.49816933	T
Max value:	at probe #:
63.8093762	1
Min value:	at probe #:
63.7702996	13
diff max-min:	ppm of mean value
612.6


	      NMR f. [MHz]	       RMS [Hz]	   Valid cycles

  1	   63.8093762	          1.8	           70 
  2	   63.8089600	          1.2	           70 
  3	   63.8078905	          1.2	           70 
  4	   63.8057945	          1.2	           70 
  5	   63.8031090	          0.6	           70 
  6	   63.7998432	          1.2	           70 
  7	   63.7947543	          1.2	           70 
  8	   63.7882019	          1.2	           70 
  9	   63.7821757	          1.2	           70 
 10	   63.7772718	          1.2	           70 
 11	   63.7730176	          1.2	           70 
 12	   63.7705399	          0.6	           70 
 13	   63.7702996	          1.2	           70 
 14	   63.7716469	          1.2	           70 
 15	   63.7734621	          1.2	           70 
 16	   63.7747271	          0.6	           70 
 17	   63.7766006	          1.2	           70 
 18	   63.7793451	          1.2	           70 
 19	   63.7815161	          1.2	           70 
 20	   63.7828266	          1.2	           70 
 21	   63.7841961	          1.2	           70 
 22	   63.7856068	          1.2	           70 
 23	   63.7864636	          1.2	           70 
 24	   63.7869019	          2.4	           70 


2016/5/10  13:35:19 -> meas. 8/33 
------------------------------------

Measurement parameters (Pr/NCY/MCF/MDA/Period) : 
24	70	637938778	1100	60	
Mean value:
63.7867793	Mhz
1.49817733	T
Max value:	at probe #:
63.8094032	1
Min value:	at probe #:
63.7710562	13
diff max-min:	ppm of mean value
601.2


	      NMR f. [MHz]	       RMS [Hz]	   Valid cycles

  1	   63.8094032	          1.2	           70 
  2	   63.8090301	          1.2	           70 
  3	   63.8080196	          1.2	           70 
  4	   63.8059936	          1.2	           70 
  5	   63.8033911	          1.2	           70 
  6	   63.8002218	          1.2	           70 
  7	   63.7952405	          1.2	           70 
  8	   63.7887963	          1.2	           70 
  9	   63.7828678	          1.2	           70 
 10	   63.7780401	          1.2	           70 
 11	   63.7738266	          1.2	           70 
 12	   63.7713451	          1.2	           70 
 13	   63.7710562	          1.2	           70 
 14	   63.7723028	          1.2	           70 
 15	   63.7739858	          1.2	           70 
 16	   63.7751100	          1.2	           70 
 17	   63.7768501	          1.2	           70 
 18	   63.7794963	          1.2	           70 
 19	   63.7816040	          1.2	           70 
 20	   63.7828776	          1.2	           70 
 21	   63.7842268	          1.2	           70 
 22	   63.7856277	          1.2	           70 
 23	   63.7864790	          1.8	           70 
 24	   63.7869117	          3.0	           70 


2016/5/10  13:35:29 -> meas. 9/33 
------------------------------------

Measurement parameters (Pr/NCY/MCF/MDA/Period) : 
24	70	637938778	1100	60	
Mean value:
63.7872275	Mhz
1.49818786	T
Max value:	at probe #:
63.8094536	1
Min value:	at probe #:
63.7718553	13
diff max-min:	ppm of mean value
589.4


	      NMR f. [MHz]	       RMS [Hz]	   Valid cycles

  1	   63.8094536	          1.2	           70 
  2	   63.8091555	          1.2	           70 
  3	   63.8082329	          1.2	           70 
  4	   63.8063053	          1.2	           70 
  5	   63.8038060	          1.2	           70 
  6	   63.8007431	          1.8	           70 
  7	   63.7958663	          1.2	           70 
  8	   63.7895105	          1.2	           70 
  9	   63.7836453	          1.2	           70 
 10	   63.7788620	          1.2	           70 
 11	   63.7746662	          1.2	           70 
 12	   63.7721762	          0.6	           70 
 13	   63.7718553	          0.6	           70 
 14	   63.7730355	          0.6	           70 
 15	   63.7746330	          1.2	           70 
 16	   63.7756601	          1.2	           70 
 17	   63.7773001	          1.2	           70 
 18	   63.7798626	          1.2	           70 
 19	   63.7819021	          1.2	           70 
 20	   63.7831118	          0.6	           70 
 21	   63.7844045	          1.2	           70 
 22	   63.7857567	          1.2	           70 
 23	   63.7865632	          1.8	           70 
 24	   63.7869517	          2.4	           70 


2016/5/10  13:35:38 -> meas. 10/33 
-------------------------------------

Measurement parameters (Pr/NCY/MCF/MDA/Period) : 
24	70	637938778	1100	60	
Mean value:
63.7877400	Mhz
1.49819989	T
Max value:	at probe #:
63.8095304	1
Min value:	at probe #:
63.7725868	13
diff max-min:	ppm of mean value
579.2


	      NMR f. [MHz]	       RMS [Hz]	   Valid cycles

  1	   63.8095304	          1.2	           70 
  2	   63.8093374	          1.2	           70 
  3	   63.8085298	          1.2	           70 
  4	   63.8067251	          1.2	           70 
  5	   63.8043445	          1.2	           70 
  6	   63.8013922	          1.8	           70 
  7	   63.7965990	          2.4	           70 
  8	   63.7902863	          1.2	           70 
  9	   63.7844364	          1.2	           70 
 10	   63.7796530	          0.6	           70 
 11	   63.7754438	          1.2	           70 
 12	   63.7729353	          0.6	           70 
 13	   63.7725868	          1.2	           70 
 14	   63.7737423	          1.2	           70 
 15	   63.7753141	          1.2	           70 
 16	   63.7762975	          1.2	           70 
 17	   63.7778828	          1.2	           70 
 18	   63.7803974	          1.2	           70 
 19	   63.7823822	          1.2	           70 
 20	   63.7835138	          1.2	           70 
 21	   63.7847167	          1.2	           70 
 22	   63.7859829	          1.2	           70 
 23	   63.7867113	          1.8	           70 
 24	   63.7870187	          3.0	           70 


2016/5/10  13:35:49 -> meas. 11/33 
-------------------------------------

Measurement parameters (Pr/NCY/MCF/MDA/Period) : 
24	70	637938778	1100	60	
Mean value:
63.7882640	Mhz
1.49821220	T
Max value:	at probe #:
63.8096269	1
Min value:	at probe #:
63.7731916	13
diff max-min:	ppm of mean value
571.2


	      NMR f. [MHz]	       RMS [Hz]	   Valid cycles

  1	   63.8096269	          1.8	           70 
  2	   63.8095550	          1.2	           70 
  3	   63.8088752	          1.2	           70 
  4	   63.8072002	          1.2	           70 
  5	   63.8049407	          1.2	           70 
  6	   63.8020868	          1.2	           70 
  7	   63.7973495	          1.2	           70 
  8	   63.7910411	          1.2	           70 
  9	   63.7851642	          1.2	           70 
 10	   63.7803445	          1.2	           70 
 11	   63.7760941	          1.2	           70 
 12	   63.7735536	          1.2	           70 
 13	   63.7731916	          1.2	           70 
 14	   63.7743558	          1.2	           70 
 15	   63.7759503	          1.2	           70 
 16	   63.7769503	          1.2	           70 
 17	   63.7785362	          1.2	           70 
 18	   63.7810422	          1.2	           70 
 19	   63.7829895	          1.2	           70 
 20	   63.7840393	          1.2	           70 
 21	   63.7851347	          1.8	           70 
 22	   63.7862915	          1.2	           70 
 23	   63.7869123	          1.8	           70 
 24	   63.7871115	          2.4	           70 


2016/5/10  13:35:59 -> meas. 12/33 
-------------------------------------

Measurement parameters (Pr/NCY/MCF/MDA/Period) : 
24	70	637938778	1100	60	
Mean value:
63.7888518	Mhz
1.49822601	T
Max value:	at probe #:
63.8098218	2
Min value:	at probe #:
63.7737866	13
diff max-min:	ppm of mean value
564.9


	      NMR f. [MHz]	       RMS [Hz]	   Valid cycles

  1	   63.8097468	          1.2	           70 
  2	   63.8098218	          1.2	           70 
  3	   63.8092889	          1.2	           70 
  4	   63.8077559	          1.2	           70 
  5	   63.8056230	          1.2	           70 
  6	   63.8028698	          1.2	           70 
  7	   63.7981762	          1.2	           70 
  8	   63.7918525	          1.2	           70 
  9	   63.7859209	          1.2	           70 
 10	   63.7810348	          1.2	           70 
 11	   63.7767155	          1.2	           70 
 12	   63.7741370	          1.2	           70 
 13	   63.7737866	          1.2	           70 
 14	   63.7749889	          0.6	           70 
 15	   63.7766448	          1.2	           70 
 16	   63.7776978	          1.2	           70 
 17	   63.7793144	          1.2	           70 
 18	   63.7818327	          1.2	           70 
 19	   63.7837480	          1.2	           70 
 20	   63.7847069	          1.2	           70 
 21	   63.7856744	          1.8	           70 
 22	   63.7866935	          1.2	           70 
 23	   63.7871773	          1.8	           70 
 24	   63.7872344	          3.0	           70 


2016/5/10  13:36:11 -> meas. 13/33 
-------------------------------------

Measurement parameters (Pr/NCY/MCF/MDA/Period) : 
24	70	637938778	1100	60	
Mean value:
63.7894355	Mhz
1.49823971	T
Max value:	at probe #:
63.8100880	2
Min value:	at probe #:
63.7743712	13
diff max-min:	ppm of mean value
559.9


	      NMR f. [MHz]	       RMS [Hz]	   Valid cycles

  1	   63.8098697	          1.2	           70 
  2	   63.8100880	          1.2	           70 
  3	   63.8096939	          1.2	           70 
  4	   63.8082876	          1.2	           70 
  5	   63.8062690	          1.2	           70 
  6	   63.8036025	          1.2	           70 
  7	   63.7989470	          1.2	           70 
  8	   63.7926085	          1.2	           70 
  9	   63.7866283	          1.2	           70 
 10	   63.7816784	          1.2	           70 
 11	   63.7772958	          0.6	           70 
 12	   63.7746920	          1.2	           70 
 13	   63.7743712	          1.2	           70 
 14	   63.7756355	          1.2	           70 
 15	   63.7773726	          1.2	           70 
 16	   63.7784882	          1.2	           70 
 17	   63.7801325	          1.2	           70 
 18	   63.7826533	          1.2	           70 
 19	   63.7845299	          1.2	           70 
 20	   63.7853990	          1.2	           70 
 21	   63.7862423	          1.8	           70 
 22	   63.7871250	          1.8	           70 
 23	   63.7874668	          1.8	           70 
 24	   63.7873739	          2.4	           70 


2016/5/10  13:36:21 -> meas. 14/33 
-------------------------------------

Measurement parameters (Pr/NCY/MCF/MDA/Period) : 
24	70	637938778	1100	60	
Mean value:
63.7900893	Mhz
1.49825507	T
Max value:	at probe #:
63.8103781	2
Min value:	at probe #:
63.7750725	13
diff max-min:	ppm of mean value
553.5


	      NMR f. [MHz]	       RMS [Hz]	   Valid cycles

  1	   63.8100044	          1.2	           70 
  2	   63.8103781	          0.6	           70 
  3	   63.8101328	          1.2	           70 
  4	   63.8088574	          1.2	           70 
  5	   63.8069580	          1.8	           70 
  6	   63.8043776	          1.2	           70 
  7	   63.7997651	          1.2	           70 
  8	   63.7934113	          1.2	           70 
  9	   63.7873862	          1.2	           70 
 10	   63.7823748	          1.2	           70 
 11	   63.7779399	          1.2	           70 
 12	   63.7753356	          0.6	           70 
 13	   63.7750725	          0.6	           70 
 14	   63.7764365	          1.2	           70 
 15	   63.7782805	          0.6	           70 
 16	   63.7794496	          0.6	           70 
 17	   63.7810895	          1.2	           70 
 18	   63.7835796	          1.2	           70 
 19	   63.7853965	          1.2	           70 
 20	   63.7861606	          1.2	           70 
 21	   63.7868650	          1.8	           70 
 22	   63.7875983	          1.2	           70 
 23	   63.7877790	          1.8	           70 
 24	   63.7875147	          2.4	           70 


2016/5/10  13:36:31 -> meas. 15/33 
-------------------------------------

Measurement parameters (Pr/NCY/MCF/MDA/Period) : 
24	70	637938778	1100	60	
Mean value:
63.7907509	Mhz
1.49827061	T
Max value:	at probe #:
63.8106596	2
Min value:	at probe #:
63.7758372	13
diff max-min:	ppm of mean value
545.9


	      NMR f. [MHz]	       RMS [Hz]	   Valid cycles

  1	   63.8101384	          1.8	           70 
  2	   63.8106596	          1.2	           70 
  3	   63.8105533	          1.2	           70 
  4	   63.8094026	          1.2	           70 
  5	   63.8076133	          1.8	           70 
  6	   63.8051152	          1.8	           70 
  7	   63.8005409	          1.2	           70 
  8	   63.7941710	          1.2	           70 
  9	   63.7880986	          1.2	           70 
 10	   63.7830282	          1.2	           70 
 11	   63.7785577	          1.8	           70 
 12	   63.7759902	          1.2	           70 
 13	   63.7758372	          1.8	           70 
 14	   63.7773357	          1.2	           70 
 15	   63.7792885	          1.8	           70 
 16	   63.7804927	          1.2	           70 
 17	   63.7821019	          9.8	           70 
 18	   63.7845391	          1.2	           70 
 19	   63.7862780	          1.2	           70 
 20	   63.7869295	          1.2	           70 
 21	   63.7874987	          1.8	           70 
 22	   63.7880814	          1.8	           70 
 23	   63.7881036	          2.4	           70 
 24	   63.7876665	          2.4	           70 


2016/5/10  13:36:41 -> meas. 16/33 
-------------------------------------

Measurement parameters (Pr/NCY/MCF/MDA/Period) : 
24	70	637938778	1100	60	
Mean value:
63.7914288	Mhz
1.49828653	T
Max value:	at probe #:
63.8109743	3
Min value:	at probe #:
63.7766147	13
diff max-min:	ppm of mean value
538.6


	      NMR f. [MHz]	       RMS [Hz]	   Valid cycles

  1	   63.8102760	          1.2	           70 
  2	   63.8109436	          1.2	           70 
  3	   63.8109743	          1.2	           70 
  4	   63.8099527	          1.2	           70 
  5	   63.8082728	          1.2	           70 
  6	   63.8058615	          1.2	           70 
  7	   63.8013326	          1.2	           70 
  8	   63.7949504	          0.6	           70 
  9	   63.7888209	          0.6	           70 
 10	   63.7836699	          1.2	           70 
 11	   63.7791410	          1.2	           70 
 12	   63.7766196	          1.2	           70 
 13	   63.7766147	          1.2	           70 
 14	   63.7782706	          1.2	           70 
 15	   63.7803470	          1.2	           70 
 16	   63.7815948	          1.2	           70 
 17	   63.7831727	          1.2	           70 
 18	   63.7855459	          0.6	           70 
 19	   63.7872006	          1.2	           70 
 20	   63.7877298	          1.2	           70 
 21	   63.7881527	          1.2	           70 
 22	   63.7885824	          1.2	           70 
 23	   63.7884392	          1.2	           70 
 24	   63.7878245	          2.4	           70 


2016/5/10  13:36:51 -> meas. 17/33 
-------------------------------------

Measurement parameters (Pr/NCY/MCF/MDA/Period) : 
24	70	637938778	1100	60	
Mean value:
63.7920890	Mhz
1.49830204	T
Max value:	at probe #:
63.8113628	3
Min value:	at probe #:
63.7773038	12
diff max-min:	ppm of mean value
533.9


	      NMR f. [MHz]	       RMS [Hz]	   Valid cycles

  1	   63.8104033	          1.2	           70 
  2	   63.8112085	          1.2	           70 
  3	   63.8113628	          1.2	           70 
  4	   63.8104518	          1.2	           70 
  5	   63.8088814	          0.6	           70 
  6	   63.8065628	          1.2	           70 
  7	   63.8020855	          0.6	           70 
  8	   63.7957144	          1.2	           70 
  9	   63.7895689	          1.2	           70 
 10	   63.7843774	          1.2	           70 
 11	   63.7798042	          0.6	           70 
 12	   63.7773038	          0.6	           70 
 13	   63.7773935	          0.6	           70 
 14	   63.7791674	          1.2	           70 
 15	   63.7813514	          1.2	           70 
 16	   63.7826428	          1.2	           70 
 17	   63.7841967	          1.2	           70 
 18	   63.7865159	          0.6	           70 
 19	   63.7880857	          1.2	           70 
 20	   63.7884927	          0.6	           70 
 21	   63.7887729	          1.8	           70 
 22	   63.7890545	          1.2	           70 
 23	   63.7887588	          1.2	           70 
 24	   63.7879782	          1.2	           70 


2016/5/10  13:37:00 -> meas. 18/33 
-------------------------------------

Measurement parameters (Pr/NCY/MCF/MDA/Period) : 
24	70	637938778	1100	60	
Mean value:
63.7927769	Mhz
1.49831820	T
Max value:	at probe #:
63.8117248	3
Min value:	at probe #:
63.7781944	12
diff max-min:	ppm of mean value
525.6


	      NMR f. [MHz]	       RMS [Hz]	   Valid cycles

  1	   63.8105182	          1.2	           70 
  2	   63.8114531	          1.2	           70 
  3	   63.8117248	          1.2	           70 
  4	   63.8109147	          1.2	           70 
  5	   63.8094598	          1.2	           70 
  6	   63.8072439	          1.2	           70 
  7	   63.8028336	          1.2	           70 
  8	   63.7965098	          1.8	           70 
  9	   63.7904104	          0.6	           70 
 10	   63.7852576	          1.2	           70 
 11	   63.7806949	          1.2	           70 
 12	   63.7781944	          0.6	           70 
 13	   63.7783038	          1.2	           70 
 14	   63.7801343	          1.2	           70 
 15	   63.7823822	          0.6	           70 
 16	   63.7836927	          1.2	           70 
 17	   63.7852152	          0.6	           70 
 18	   63.7874754	          1.2	           70 
 19	   63.7889543	          1.2	           70 
 20	   63.7892309	          1.2	           70 
 21	   63.7893661	          1.2	           70 
 22	   63.7895007	          1.2	           70 
 23	   63.7890563	          1.2	           70 
 24	   63.7881177	          1.8	           70 


2016/5/10  13:37:12 -> meas. 19/33 
-------------------------------------

Measurement parameters (Pr/NCY/MCF/MDA/Period) : 
24	70	637938778	1100	60	
Mean value:
63.7934137	Mhz
1.49833315	T
Max value:	at probe #:
63.8120291	3
Min value:	at probe #:
63.7791263	12
diff max-min:	ppm of mean value
515.8


	      NMR f. [MHz]	       RMS [Hz]	   Valid cycles

  1	   63.8106135	          1.2	           70 
  2	   63.8116566	          1.2	           70 
  3	   63.8120291	          1.2	           70 
  4	   63.8113148	          1.2	           70 
  5	   63.8099589	          1.2	           70 
  6	   63.8078389	          1.2	           70 
  7	   63.8035023	          1.2	           70 
  8	   63.7972419	          1.2	           70 
  9	   63.7912126	          1.2	           70 
 10	   63.7861268	          1.2	           70 
 11	   63.7816052	          1.2	           70 
 12	   63.7791263	          0.6	           70 
 13	   63.7792474	          1.2	           70 
 14	   63.7810988	          1.2	           70 
 15	   63.7833644	          1.2	           70 
 16	   63.7846608	          1.2	           70 
 17	   63.7861342	          0.6	           70 
 18	   63.7883273	          0.6	           70 
 19	   63.7897146	          1.2	           70 
 20	   63.7898689	          1.2	           70 
 21	   63.7898726	          1.2	           70 
 22	   63.7898781	          1.2	           70 
 23	   63.7893040	          1.2	           70 
 24	   63.7882314	          1.2	           70 


2016/5/10  13:37:23 -> meas. 20/33 
-------------------------------------

Measurement parameters (Pr/NCY/MCF/MDA/Period) : 
24	70	637938778	1100	60	
Mean value:
63.7940659	Mhz
1.49834847	T
Max value:	at probe #:
63.8123100	3
Min value:	at probe #:
63.7801399	12
diff max-min:	ppm of mean value
504.3


	      NMR f. [MHz]	       RMS [Hz]	   Valid cycles

  1	   63.8106971	          1.2	           70 
  2	   63.8118422	          1.2	           70 
  3	   63.8123100	          1.2	           70 
  4	   63.8116910	          1.2	           70 
  5	   63.8104383	          1.2	           70 
  6	   63.8084216	          1.2	           70 
  7	   63.8041742	          1.2	           70 
  8	   63.7979924	          1.2	           70 
  9	   63.7920498	          1.2	           70 
 10	   63.7870426	          1.2	           70 
 11	   63.7825758	          1.2	           70 
 12	   63.7801399	          1.2	           70 
 13	   63.7802984	          1.2	           70 
 14	   63.7821646	          1.2	           70 
 15	   63.7844254	          1.2	           70 
 16	   63.7856762	          0.6	           70 
 17	   63.7870728	          1.2	           70 
 18	   63.7891762	          1.2	           70 
 19	   63.7904565	          1.2	           70 
 20	   63.7904823	          0.6	           70 
 21	   63.7903514	          1.2	           70 
 22	   63.7902309	          1.2	           70 
 23	   63.7895358	          1.8	           70 
 24	   63.7883371	          1.2	           70 


2016/5/10  13:37:35 -> meas. 21/33 
-------------------------------------

Measurement parameters (Pr/NCY/MCF/MDA/Period) : 
24	70	637938778	1100	60	
Mean value:
63.7946879	Mhz
1.49836308	T
Max value:	at probe #:
63.8125442	3
Min value:	at probe #:
63.7811891	12
diff max-min:	ppm of mean value
491.5


	      NMR f. [MHz]	       RMS [Hz]	   Valid cycles

  1	   63.8107641	          1.2	           70 
  2	   63.8119928	          1.2	           70 
  3	   63.8125442	          0.6	           70 
  4	   63.8120143	          1.2	           70 
  5	   63.8108563	          1.2	           70 
  6	   63.8089527	          0.6	           70 
  7	   63.8048085	          1.2	           70 
  8	   63.7987270	          1.2	           70 
  9	   63.7928925	          1.2	           70 
 10	   63.7879782	          1.2	           70 
 11	   63.7835759	          1.8	           70 
 12	   63.7811891	          0.6	           70 
 13	   63.7813858	          1.2	           70 
 14	   63.7832556	          1.2	           70 
 15	   63.7854838	          0.6	           70 
 16	   63.7866572	          1.2	           70 
 17	   63.7879474	          1.2	           70 
 18	   63.7899420	          1.2	           70 
 19	   63.7911069	          1.2	           70 
 20	   63.7910067	          1.2	           70 
 21	   63.7907559	          1.2	           70 
 22	   63.7905254	          1.2	           70 
 23	   63.7897257	          1.2	           70 
 24	   63.7884220	          1.2	           70 


2016/5/10  13:37:45 -> meas. 22/33 
-------------------------------------

Measurement parameters (Pr/NCY/MCF/MDA/Period) : 
24	70	637938778	1100	60	
Mean value:
63.7952525	Mhz
1.49837634	T
Max value:	at probe #:
63.8127132	3
Min value:	at probe #:
63.7822599	12
diff max-min:	ppm of mean value
477.4


	      NMR f. [MHz]	       RMS [Hz]	   Valid cycles

  1	   63.8108053	          1.2	           70 
  2	   63.8120955	          1.2	           70 
  3	   63.8127132	          1.2	           70 
  4	   63.8122614	          1.2	           70 
  5	   63.8111962	          1.2	           70 
  6	   63.8094020	          1.2	           70 
  7	   63.8053734	          1.2	           70 
  8	   63.7994191	          1.2	           70 
  9	   63.7937204	          1.2	           70 
 10	   63.7889198	          1.2	           70 
 11	   63.7845962	          1.2	           70 
 12	   63.7822599	          0.6	           70 
 13	   63.7824676	          1.2	           70 
 14	   63.7843153	          1.2	           70 
 15	   63.7864827	          1.2	           70 
 16	   63.7875516	          1.2	           70 
 17	   63.7887158	          1.2	           70 
 18	   63.7905838	          1.2	           70 
 19	   63.7916275	          1.2	           70 
 20	   63.7914130	          0.6	           70 
 21	   63.7910614	          1.2	           70 
 22	   63.7907411	          1.2	           70 
 23	   63.7898597	          1.2	           70 
 24	   63.7884779	          1.8	           70 


2016/5/10  13:37:54 -> meas. 23/33 
-------------------------------------

Measurement parameters (Pr/NCY/MCF/MDA/Period) : 
24	70	637938778	1100	60	
Mean value:
63.7957276	Mhz
1.49838750	T
Max value:	at probe #:
63.8128116	3
Min value:	at probe #:
63.7832556	12
diff max-min:	ppm of mean value
463.3


	      NMR f. [MHz]	       RMS [Hz]	   Valid cycles

  1	   63.8108206	          1.2	           70 
  2	   63.8121459	          1.2	           70 
  3	   63.8128116	          1.2	           70 
  4	   63.8124243	          1.2	           70 
  5	   63.8114439	          1.2	           70 
  6	   63.8097530	          1.2	           70 
  7	   63.8058424	          2.4	           70 
  8	   63.8000313	          1.2	           70 
  9	   63.7944789	          1.2	           70 
 10	   63.7897939	          1.2	           70 
 11	   63.7855508	          1.2	           70 
 12	   63.7832556	          0.6	           70 
 13	   63.7834566	          1.2	           70 
 14	   63.7852705	          1.2	           70 
 15	   63.7873610	          0.6	           70 
 16	   63.7883162	          1.2	           70 
 17	   63.7893501	          1.2	           70 
 18	   63.7910878	          1.2	           70 
 19	   63.7920092	          1.2	           70 
 20	   63.7916914	          1.2	           70 
 21	   63.7912599	          1.2	           70 
 22	   63.7908727	          0.6	           70 
 23	   63.7899334	          1.2	           70 
 24	   63.7885013	          1.8	           70 


2016/5/10  13:38:05 -> meas. 24/33 
-------------------------------------

Measurement parameters (Pr/NCY/MCF/MDA/Period) : 
24	70	637938778	1100	60	
Mean value:
63.7960623	Mhz
1.49839536	T
Max value:	at probe #:
63.8128355	3
Min value:	at probe #:
63.7840105	12
diff max-min:	ppm of mean value
451.8


	      NMR f. [MHz]	       RMS [Hz]	   Valid cycles

  1	   63.8108114	          1.2	           70 
  2	   63.8121434	          1.2	           70 
  3	   63.8128355	          1.2	           70 
  4	   63.8124969	          1.2	           70 
  5	   63.8115878	          1.2	           70 
  6	   63.8099896	          0.6	           70 
  7	   63.8061928	          1.2	           70 
  8	   63.8005107	          1.2	           70 
  9	   63.7950801	          1.2	           70 
 10	   63.7904836	          1.2	           70 
 11	   63.7862878	          1.2	           70 
 12	   63.7840105	          1.2	           70 
 13	   63.7842084	          1.2	           70 
 14	   63.7859897	          1.2	           70 
 15	   63.7880132	          1.2	           70 
 16	   63.7888713	          1.2	           70 
 17	   63.7897908	          1.8	           70 
 18	   63.7914136	          1.8	           70 
 19	   63.7922323	          1.2	           70 
 20	   63.7918346	          1.2	           70 
 21	   63.7913460	          1.8	           70 
 22	   63.7909169	          1.2	           70 
 23	   63.7899482	          1.2	           70 
 24	   63.7885000	          2.4	           70 


2016/5/10  13:38:14 -> meas. 25/33 
-------------------------------------

Measurement parameters (Pr/NCY/MCF/MDA/Period) : 
24	70	637938778	1100	60	
Mean value:
63.7962267	Mhz
1.49839922	T
Max value:	at probe #:
63.8127728	3
Min value:	at probe #:
63.7844862	12
diff max-min:	ppm of mean value
443.4


	      NMR f. [MHz]	       RMS [Hz]	   Valid cycles

  1	   63.8107764	          1.2	           70 
  2	   63.8120844	          1.2	           70 
  3	   63.8127728	          1.2	           70 
  4	   63.8124569	          1.2	           70 
  5	   63.8115982	          1.2	           70 
  6	   63.8100714	          1.2	           70 
  7	   63.8063637	          1.2	           70 
  8	   63.8007880	          1.2	           70 
  9	   63.7954544	          1.2	           70 
 10	   63.7909212	          1.2	           70 
 11	   63.7867531	          1.2	           70 
 12	   63.7844862	          1.2	           70 
 13	   63.7846829	          0.6	           70 
 14	   63.7864372	          1.2	           70 
 15	   63.7884017	          1.2	           70 
 16	   63.7891799	          0.6	           70 
 17	   63.7900115	          1.2	           70 
 18	   63.7915451	          0.6	           70 
 19	   63.7922840	          1.2	           70 
 20	   63.7918297	          0.6	           70 
 21	   63.7913103	          1.2	           70 
 22	   63.7908671	          1.2	           70 
 23	   63.7898984	          1.2	           70 
 24	   63.7884674	          1.8	           70 


2016/5/10  13:38:25 -> meas. 26/33 
-------------------------------------

Measurement parameters (Pr/NCY/MCF/MDA/Period) : 
24	70	637938778	1100	60	
Mean value:
63.7961988	Mhz
1.49839857	T
Max value:	at probe #:
63.8126173	3
Min value:	at probe #:
63.7846921	12
diff max-min:	ppm of mean value
437.7


	      NMR f. [MHz]	       RMS [Hz]	   Valid cycles

  1	   63.8107161	          1.2	           70 
  2	   63.8119664	          1.2	           70 
  3	   63.8126173	          1.2	           70 
  4	   63.8122897	          1.2	           70 
  5	   63.8114476	          1.2	           70 
  6	   63.8099601	          1.2	           70 
  7	   63.8063126	          1.2	           70 
  8	   63.8008144	          1.2	           70 
  9	   63.7955602	          1.2	           70 
 10	   63.7910847	          1.2	           70 
 11	   63.7869511	          1.2	           70 
 12	   63.7846921	          0.6	           70 
 13	   63.7848630	          1.2	           70 
 14	   63.7865773	          1.2	           70 
 15	   63.7884804	          1.8	           70 
 16	   63.7891891	          1.2	           70 
 17	   63.7899599	          0.6	           70 
 18	   63.7914400	          1.2	           70 
 19	   63.7921352	          1.2	           70 
 20	   63.7916607	          0.6	           70 
 21	   63.7911431	          1.2	           70 
 22	   63.7907190	          1.2	           70 
 23	   63.7897859	          1.2	           70 
 24	   63.7884060	          1.2	           70 


2016/5/10  13:38:37 -> meas. 27/33 
-------------------------------------

Measurement parameters (Pr/NCY/MCF/MDA/Period) : 
24	70	637938778	1100	60	
Mean value:
63.7959676	Mhz
1.49839314	T
Max value:	at probe #:
63.8123653	3
Min value:	at probe #:
63.7846387	12
diff max-min:	ppm of mean value
434.6


	      NMR f. [MHz]	       RMS [Hz]	   Valid cycles

  1	   63.8106338	          1.8	           70 
  2	   63.8117924	          1.2	           70 
  3	   63.8123653	          1.2	           70 
  4	   63.8119805	          1.2	           70 
  5	   63.8111089	          1.8	           70 
  6	   63.8096190	          1.8	           70 
  7	   63.8059991	          2.4	           70 
  8	   63.8005587	          1.2	           70 
  9	   63.7953850	          1.2	           70 
 10	   63.7909833	          1.2	           70 
 11	   63.7868988	          1.2	           70 
 12	   63.7846387	          1.8	           70 
 13	   63.7847524	          1.2	           70 
 14	   63.7863960	          1.8	           70 
 15	   63.7882216	          1.8	           70 
 16	   63.7888688	          1.2	           70 
 17	   63.7896107	          1.8	           70 
 18	   63.7910774	          2.4	           70 
 19	   63.7917695	          1.2	           70 
 20	   63.7913158	          1.2	           70 
 21	   63.7908413	          1.8	           70 
 22	   63.7904750	          1.2	           70 
 23	   63.7896120	          1.2	           70 
 24	   63.7883181	          1.8	           70 


2016/5/10  13:38:46 -> meas. 28/33 
-------------------------------------

Measurement parameters (Pr/NCY/MCF/MDA/Period) : 
24	70	637938778	1100	60	
Mean value:
63.7955398	Mhz
1.49838309	T
Max value:	at probe #:
63.8120107	3
Min value:	at probe #:
63.7843682	12
diff max-min:	ppm of mean value
433.3


	      NMR f. [MHz]	       RMS [Hz]	   Valid cycles

  1	   63.8105262	          1.2	           70 
  2	   63.8115589	          1.2	           70 
  3	   63.8120107	          1.2	           70 
  4	   63.8115171	          1.2	           70 
  5	   63.8105680	          1.2	           70 
  6	   63.8090276	          1.2	           70 
  7	   63.8054232	          1.2	           70 
  8	   63.8000467	          1.2	           70 
  9	   63.7949731	          1.2	           70 
 10	   63.7906674	          1.2	           70 
 11	   63.7866431	          1.2	           70 
 12	   63.7843682	          1.2	           70 
 13	   63.7843959	          1.2	           70 
 14	   63.7859184	          1.2	           70 
 15	   63.7876303	          1.2	           70 
 16	   63.7882148	          1.2	           70 
 17	   63.7889506	          1.2	           70 
 18	   63.7904338	          1.2	           70 
 19	   63.7911652	          1.2	           70 
 20	   63.7907829	          0.6	           70 
 21	   63.7903994	          1.2	           70 
 22	   63.7901369	          1.2	           70 
 23	   63.7893839	          1.2	           70 
 24	   63.7882117	          1.8	           70 


2016/5/10  13:38:56 -> meas. 29/33 
-------------------------------------

Measurement parameters (Pr/NCY/MCF/MDA/Period) : 
24	70	637938778	1100	60	
Mean value:
63.7949755	Mhz
1.49836983	T
Max value:	at probe #:
63.8115804	3
Min value:	at probe #:
63.7839459	13
diff max-min:	ppm of mean value
433.2


	      NMR f. [MHz]	       RMS [Hz]	   Valid cycles

  1	   63.8104039	          1.2	           70 
  2	   63.8112847	          0.6	           70 
  3	   63.8115804	          1.2	           70 
  4	   63.8109313	          1.2	           70 
  5	   63.8098476	          1.2	           70 
  6	   63.8082230	          1.2	           70 
  7	   63.8046315	          1.2	           70 
  8	   63.7993545	          1.2	           70 
  9	   63.7944199	          1.2	           70 
 10	   63.7902445	          1.2	           70 
 11	   63.7863142	          1.2	           70 
 12	   63.7840400	          0.6	           70 
 13	   63.7839459	          1.2	           70 
 14	   63.7852681	          2.4	           70 
 15	   63.7867980	          1.2	           70 
 16	   63.7873033	          1.2	           70 
 17	   63.7880458	          1.2	           70 
 18	   63.7895646	          1.2	           70 
 19	   63.7903619	          1.2	           70 
 20	   63.7900914	          8.6	           70 
 21	   63.7898449	          1.2	           70 
 22	   63.7897220	          1.2	           70 
 23	   63.7891086	          1.2	           70 
 24	   63.7880814	          1.2	           70 


2016/5/10  13:39:06 -> meas. 30/33 
-------------------------------------

Measurement parameters (Pr/NCY/MCF/MDA/Period) : 
24	70	637938778	1100	60	
Mean value:
63.7942651	Mhz
1.49835315	T
Max value:	at probe #:
63.8110641	3
Min value:	at probe #:
63.7834536	13
diff max-min:	ppm of mean value
432.8


	      NMR f. [MHz]	       RMS [Hz]	   Valid cycles

  1	   63.8102619	          1.2	           70 
  2	   63.8109639	          1.2	           70 
  3	   63.8110641	          1.2	           70 
  4	   63.8102195	          1.8	           70 
  5	   63.8089379	          1.2	           70 
  6	   63.8071885	          1.2	           70 
  7	   63.8036050	          1.2	           70 
  8	   63.7984583	          0.6	           70 
  9	   63.7936959	          0.6	           70 
 10	   63.7896857	          1.2	           70 
 11	   63.7859258	          1.2	           70 
 12	   63.7837234	          0.6	           70 
 13	   63.7834536	          1.2	           70 
 14	   63.7844204	          1.2	           70 
 15	   63.7856541	          1.2	           70 
 16	   63.7860819	          1.2	           70 
 17	   63.7868748	          1.2	           70 
 18	   63.7884552	          1.2	           70 
 19	   63.7893458	          1.2	           70 
 20	   63.7892296	          1.2	           70 
 21	   63.7891669	          1.2	           70 
 22	   63.7892278	          1.2	           70 
 23	   63.7887883	          1.2	           70 
 24	   63.7879339	          1.8	           70 


2016/5/10  13:39:16 -> meas. 31/33 
-------------------------------------

Measurement parameters (Pr/NCY/MCF/MDA/Period) : 
24	70	637938778	1100	60	
Mean value:
63.7933470	Mhz
1.49833159	T
Max value:	at probe #:
63.8106301	2
Min value:	at probe #:
63.7825107	13
diff max-min:	ppm of mean value
440.8


	      NMR f. [MHz]	       RMS [Hz]	   Valid cycles

  1	   63.8101162	          1.2	           70 
  2	   63.8106301	          1.2	           70 
  3	   63.8105195	          1.2	           70 
  4	   63.8094438	          1.2	           70 
  5	   63.8079391	          1.2	           70 
  6	   63.8060059	          1.2	           70 
  7	   63.8023474	          1.2	           70 
  8	   63.7972308	          0.6	           70 
  9	   63.7925409	          1.2	           70 
 10	   63.7886162	          1.2	           70 
 11	   63.7849958	          1.2	           70 
 12	   63.7828942	          1.2	           70 
 13	   63.7825107	          1.2	           70 
 14	   63.7831911	          1.2	           70 
 15	   63.7842016	          1.2	           70 
 16	   63.7846214	          0.6	           70 
 17	   63.7855133	          1.2	           70 
 18	   63.7871908	          1.2	           70 
 19	   63.7882074	          1.2	           70 
 20	   63.7882781	          1.2	           70 
 21	   63.7884263	          1.2	           70 
 22	   63.7886900	          1.2	           70 
 23	   63.7884416	          1.2	           70 
 24	   63.7877753	          1.8	           70 


2016/5/10  13:39:26 -> meas. 32/33 
-------------------------------------

Measurement parameters (Pr/NCY/MCF/MDA/Period) : 
24	70	637938778	1100	60	
Mean value:
63.7921099	Mhz
1.49830253	T
Max value:	at probe #:
63.8102853	2
Min value:	at probe #:
63.7804275	13
diff max-min:	ppm of mean value
468.0


	      NMR f. [MHz]	       RMS [Hz]	   Valid cycles

  1	   63.8099662	          1.2	           70 
  2	   63.8102853	          1.2	           70 
  3	   63.8099576	          1.2	           70 
  4	   63.8086502	          1.2	           70 
  5	   63.8068984	          1.2	           70 
  6	   63.8047206	          1.2	           70 
  7	   63.8008322	          1.2	           70 
  8	   63.7955245	          1.2	           70 
  9	   63.7906876	          0.6	           70 
 10	   63.7866658	          0.6	           70 
 11	   63.7829526	          1.2	           70 
 12	   63.7807613	          0.6	           70 
 13	   63.7804275	          1.2	           70 
 14	   63.7812979	          0.6	           70 
 15	   63.7824744	          1.2	           70 
 16	   63.7829864	          0.6	           70 
 17	   63.7839803	          0.6	           70 
 18	   63.7857973	          1.2	           70 
 19	   63.7869947	          1.2	           70 
 20	   63.7872842	          1.2	           70 
 21	   63.7876567	          1.2	           70 
 22	   63.7881325	          1.2	           70 
 23	   63.7880851	          0.6	           70 
 24	   63.7876174	          1.8	           70 


2016/5/10  13:39:36 -> meas. 33/33 
-------------------------------------

Measurement parameters (Pr/NCY/MCF/MDA/Period) : 
24	70	637938778	1100	60	
Mean value:
63.7907088	Mhz
1.49826962	T
Max value:	at probe #:
63.8099552	2
Min value:	at probe #:
63.7777906	13
diff max-min:	ppm of mean value
504.2


	      NMR f. [MHz]	       RMS [Hz]	   Valid cycles

  1	   63.8098261	          1.8	           70 
  2	   63.8099552	          1.8	           70 
  3	   63.8094216	          1.2	           70 
  4	   63.8078985	          1.8	           70 
  5	   63.8058959	          1.2	           70 
  6	   63.8034292	          1.2	           70 
  7	   63.7992082	          1.2	           70 
  8	   63.7935619	          1.2	           70 
  9	   63.7884207	          1.2	           70 
 10	   63.7841807	          1.2	           70 
 11	   63.7802997	          1.2	           70 
 12	   63.7780112	          1.2	           70 
 13	   63.7777906	          1.2	           70 
 14	   63.7789751	          1.2	           70 
 15	   63.7804576	          1.2	           70 
 16	   63.7811707	          1.2	           70 
 17	   63.7823459	          1.2	           70 
 18	   63.7843694	          1.2	           70 
 19	   63.7857887	          1.2	           70 
 20	   63.7863112	          1.2	           70 
 21	   63.7869050	          1.2	           70 
 22	   63.7875872	          1.2	           70 
 23	   63.7877372	          1.2	           70 
 24	   63.7874643	          1.8	           70 
